Folder: Personal-projects/Cluster-based Hyperspectral Unmixing/Matlab code/Data/USGS_cvAVIRISc1997_LIB2/Spectra_folder

Note: Cluster-based Hyperspectral Unmixing/Matlab code/Data/USGS_cvAVIRISc1997_LIB2/Spectra_folder/s07_AV97_Acid_Mine_Dr_Assemb1-Fe3+_ASDFRb_AREF.txt
s07_AV97 Record=3521: Acid_Mine_Dr Assemb1-Fe3+    ASDFRb AREF
 9.1103688e-002
 9.3108855e-002
 9.6175820e-002
 9.9078432e-002
 1.0053609e-001
 1.0250767e-001
 1.0458375e-001
 1.0695066e-001
 1.0869560e-001
 1.0999287e-001
 1.1130304e-001
 1.1309218e-001
 1.1556531e-001
 1.1914612e-001
 1.2397247e-001
 1.3010834e-001
 1.3777287e-001
 1.4669031e-001
 1.5707846e-001
 1.6897345e-001
 1.8252152e-001
 1.9772121e-001
 2.1341726e-001
 2.2941762e-001
 2.4510399e-001
 2.6035818e-001
 2.7619901e-001
 2.9142395e-001
 3.0563393e-001
 3.1870699e-001
 3.3055013e-001
 3.4152365e-001
 3.2877046e-001
 3.3944142e-001
 3.4968510e-001
 3.5914153e-001
 3.6821362e-001
 3.7660277e-001
 3.8388741e-001
 3.9028302e-001
 3.9589149e-001
 4.0034834e-001
 4.0329051e-001
 4.0504980e-001
 4.0614572e-001
 4.0618435e-001
 4.0484515e-001
 4.0326169e-001
 4.0119314e-001
 3.9854407e-001
 3.9579916e-001
 3.9328548e-001
 3.9078295e-001
 3.8827384e-001
 3.8591623e-001
 3.8422373e-001
 3.8288575e-001
 3.8097182e-001
 3.8011333e-001
 3.8013557e-001
 3.8092759e-001
 3.8173267e-001
 3.8326141e-001
 3.8491684e-001
 3.8683629e-001
 3.8935676e-001
 3.9150745e-001
 3.9512083e-001
 3.9872849e-001
 4.0178716e-001
 4.0626135e-001
 4.0931806e-001
 4.1331074e-001
 4.1725621e-001
 4.2229444e-001
 4.2661968e-001
 4.3225425e-001
 4.3842456e-001
 4.4441223e-001
 4.5018780e-001
 4.5792401e-001
 4.6609825e-001
 4.7284445e-001
 4.8009491e-001
 4.8649406e-001
 4.9350661e-001
 4.9968240e-001
 5.0738811e-001
 5.1407117e-001
 5.2018315e-001
 5.2636230e-001
 5.3282315e-001
 5.3844589e-001
 5.4445130e-001
 5.4959655e-001
 5.5489701e-001
 5.4668087e-001
 5.5169451e-001
 5.5756044e-001
 5.6271374e-001
 5.6750244e-001
 5.7219559e-001
 5.7648343e-001
 5.8023435e-001
 5.8368021e-001
 5.8596718e-001
 5.8887851e-001
-1.2300000e+034
-1.2300000e+034
-1.2300000e+034
-1.2300000e+034
-1.2300000e+034
 5.6930727e-001
 5.7132775e-001
 5.7347792e-001
 5.7686687e-001
 5.7867980e-001
 5.8013105e-001
 5.8265346e-001
 5.8637667e-001
 5.8860397e-001
 5.9059018e-001
 5.9254014e-001
 5.9360307e-001
 5.9575635e-001
 5.9631008e-001
 5.9776813e-001
 5.9861511e-001
 5.9945548e-001
 6.0047376e-001
 6.0089558e-001
 6.0142756e-001
 6.0210490e-001
 6.0250759e-001
 6.0194963e-001
 6.0206246e-001
 6.0214603e-001
 6.0177606e-001
 6.0125357e-001
 6.0018075e-001
 5.9984118e-001
 5.9995621e-001
 5.9866422e-001
 5.9658402e-001
 5.9552503e-001
 5.9453362e-001
 5.9280831e-001
 5.9158206e-001
 5.8957940e-001
 5.8882713e-001
 5.7596838e-001
-1.2300000e+034
-1.2300000e+034
-1.2300000e+034
-1.2300000e+034
-1.2300000e+034
-1.2300000e+034
-1.2300000e+034
-1.2300000e+034
-1.2300000e+034
-1.2300000e+034
-1.2300000e+034
-1.2300000e+034
-1.2300000e+034
-1.2300000e+034
-1.2300000e+034
-1.2300000e+034
-1.2300000e+034
-1.2300000e+034
 4.9171579e-001
 4.9425846e-001
 4.9511144e-001
 5.1060778e-001
 5.1064873e-001
 5.1632321e-001
 5.2074718e-001
 5.2441680e-001
 5.3658891e-001
 5.4134840e-001
 5.3398424e-001
 5.4560703e-001
 5.4853982e-001
 5.4733998e-001
 5.430196

Note: Cluster-based Hyperspectral Unmixing/Matlab code/Data/USGS_cvAVIRISc1997_LIB2/Spectra_folder/s07_AV97_Acid_Mine_Dr_Assemb2-Fe3+_ASDFRb_AREF.txt
s07_AV97 Record=3525: Acid_Mine_Dr Assemb2-Fe3+    ASDFRb AREF
 2.5250196e-002
 2.3894386e-002
 2.3585891e-002
 2.5549136e-002
 2.7707968e-002
 3.0077543e-002
 3.4558836e-002
 4.0030330e-002
 4.5058589e-002
 4.9067914e-002
 5.1747188e-002
 5.4088522e-002
 5.8192950e-002
 6.6273496e-002
 8.0880530e-002
 1.0331394e-001
 1.3243018e-001
 1.6560836e-001
 2.0048746e-001
 2.3337710e-001
 2.6468366e-001
 2.9318488e-001
 3.1759369e-001
 3.3828408e-001
 3.5557652e-001
 3.7097287e-001
 3.8568234e-001
 4.0015543e-001
 4.1476321e-001
 4.3005529e-001
 4.4611254e-001
 4.6272254e-001
 4.4348875e-001
 4.5948654e-001
 4.7577545e-001
 4.9132219e-001
 5.0488913e-001
 5.1523477e-001
 5.2193695e-001
 5.2509505e-001
 5.2519357e-001
 5.2274871e-001
 5.1850128e-001
 5.1281434e-001
 5.0649697e-001
 4.9983290e-001
 4.9337628e-001
 4.8734158e-001
 4.8175940e-001
 4.7689483e-001
 4.7283417e-001
 4.6939382e-001
 4.6679467e-001
 4.6494576e-001
 4.6386483e-001
 4.6313924e-001
 4.6329665e-001
 4.6371058e-001
 4.6476147e-001
 4.6643242e-001
 4.6853131e-001
 4.7108370e-001
 4.7482565e-001
 4.7816023e-001
 4.8264456e-001
 4.8814210e-001
 4.9392322e-001
 5.0010246e-001
 5.0694424e-001
 5.1407468e-001
 5.2204418e-001
 5.3023392e-001
 5.3925097e-001
 5.4787153e-001
 5.5760247e-001
 5.6787264e-001
 5.7689059e-001
 5.8722913e-001
 5.9731668e-001
 6.0664523e-001
 6.1701143e-001
 6.2593770e-001
 6.3508028e-001
 6.4401269e-001
 6.5193856e-001
 6.6044468e-001
 6.6759855e-001
 6.7527407e-001
 6.8250543e-001
 6.8874842e-001
 6.9506758e-001
 7.0067543e-001
 7.0562702e-001
 7.1049464e-001
 7.1442306e-001
 7.1849221e-001
 7.1237487e-001
 7.1664554e-001
 7.2051233e-001
 7.2371376e-001
 7.2627497e-001
 7.2864592e-001
 7.3056930e-001
 7.3187411e-001
 7.3247391e-001
 7.3298466e-001
 7.3408300e-001
 7.3461783e-001
 7.3298162e-001
 7.2901088e-001
 7.1903074e-001
 7.0320898e-001
 6.8830115e-001
 6.8047929e-001
 6.7652875e-001
 6.7370808e-001
 6.7282104e-001
 6.7314571e-001
 6.7434329e-001
 6.7637545e-001
 6.7894417e-001
 6.8231422e-001
 6.8510693e-001
 6.8767351e-001
 6.8981546e-001
 6.9140130e-001
 6.9327420e-001
 6.9479585e-001
 6.9601572e-001
 6.9666344e-001
 6.9714296e-001
 6.9725978e-001
 6.9733173e-001
 6.9694316e-001
 6.9643760e-001
 6.9567049e-001
 6.9500494e-001
 6.9420630e-001
 6.9315392e-001
 6.9222063e-001
 6.9110501e-001
 6.8983001e-001
 6.8822527e-001
 6.8625706e-001
 6.8384409e-001
 6.8140727e-001
 6.7986071e-001
 6.7938113e-001
 6.7858511e-001
 6.7841578e-001
 6.7811424e-001
 6.7768937e-001
 6.7595887e-001
 6.7392242e-001
 6.7152578e-001
 6.6877109e-001
 6.6400582e-001
 6.6086942e-001
 6.5533876e-001
 6.4060169e-001
 6.4929396e-001
 6.2643570e-001
 5.9800923e-001
 5.6711900e-001
 5.4065859e-001
 5.2437383e-001
 5.1492041e-001
 5.1417929e-001
 5.1880819e-001
 5.2581799e-001
 5.3453332e-001
 5.4358137e-001
 5.5429339e-001
 5.6500107e-001
 5.7481992e-001
 5.8550829e-001
 5.9342724e-001
 5.9925944e-001
 6.0259348e-001
 6.0895127e-001
 6.1366862e-001
 6.1611295e-001
 6.1961401e-001
 6.213998

Note: Cluster-based Hyperspectral Unmixing/Matlab code/Data/USGS_cvAVIRISc1997_LIB2/README.txt
This library includes the spectra from ChapterM and ChapterS of splib07 USGS library, convolved to AVIRIS-1997 spectra

File: s07_AV97_Chalcedony_CU91-6A_XRD_NIC4aa_RREF.txt
s07_AV97 Record=746: Chalcedony CU91-6A XRD       NIC4aa RREF
-1.23e+34
-1.23e+34
-1.23e+34
-1.23e+34
-1.23e+34
-1.23e+34
-1.23e+34
-1.23e+34
-1.23e+34
-1.23e+34
-1.23e+34
-1.23e+34
-1.23e+34
-1.23e+34
-1.23e+34
-1.23e+34
-1.23e+34
-1.23e+34
-1.23e+34
-1.23e+34
-1.23e+34
-1.23e+34
-1.23e+34
-1.23e+34
-1.23e+34
-1.23e+34
-1.23e+34
-1.23e+34
-1.23e+34
-1.23e+34
-1.23e+34
-1.23e+34
-1.23e+34
-1.23e+34
-1.23e+34
-1.23e+34
-1.23e+34
-1.23e+34
-1.23e+34
-1.23e+34
-1.23e+34
-1.23e+34
-1.23e+34
-1.23e+34
-1.23e+34
-1.23e+34
-1.23e+34
-1.23e+34
-1.23e+34
-1.23e+34
-1.23e+34
-1.23e+34
-1.23e+34
-1.23e+34
-1.23e+34
-1.23e+34
-1.23e+34
-1.23e+34
-1.23e+34
-1.23e+34
-1.23e+34
-1.23e+34
-1.23e+34
-1.23e+34
-1.23e+34
-1.23e+34
-1.23e+34
-1.23e+34
-1.23e+34
-1.23e+34
-1.23e+34
-1.23e+34
-1.23e+34
-1.23e+34
-1.23e+34
-1.23e+34
-1.23e+34
-1.23e+34
-1.23e+34
-1.23e+34
-1.23e+34
-1.23e+34
-1.23e+34
-1.23e+34
-1.23e+34
-1.23e+34
-1.23e+34
-1.23e+34
-1.23e+34
-1.23e+34
-1.23e+34
-1.23e+34
-1.23e+34
-1.23e+34
-1.23e+34
-1.23e+34
-1.23e+34
-1.23e+34
-1.23e+34
-1.23e+34
-1.23e+34
-1.23e+34
-1.23e+34
-1.23e+34
-1.23e+34
-1.23e+34
-1.23e+34
-1.23e+34
-1.23e+34
-1.23e+34
-1.23e+34
-1.23e+34
-1.23e+34
-1.23e+34
-1.23e+34
-1.23e+34
-1.23e+34
-1.23e+34
-1.23e+34
-1.23e+34
-1.23e+34
-1.23e+34
-1.23e+34
-1.23e+34
-1.23e+34
-1.23e+34
-1.23e+34
-1.23e+34
-1.23e+34
-1.23e+34
-1.23e+34
-1.23e+34
 0.440451
 0.442599
 0.445113
 0.447733
 0.450235
 0.452229
 0.453767
 0.455176
 0.456852
 0.458732
 0.460802
 0.46284
 0.464453
 0.465632
 0.466551
 0.467535
 0.468687
 0.470149
 0.471609
 0.472986
 0.474082
 0.474795
 0.475185
 0.475512
 0.47616
 0.476865
 0.477259
 0.477174
 0.477298
 0.476149
 0.473584
 0.471602
 0.471406
 0.472135
 0.47328
 0.474681
 0.476234
 0.477907
 0.479416
 0.480632
 0.48154
 0.482032
 0.482235
 0.482262
 0.482443
 0.482771
 0.483158
 0.48361
 0.4841
 0.484332
 0.484418
 0.484208
 0.483707
 0.483026
 0.482032
 0.480915
 0.479485
 0.477656
 0.474788
 0.471055
 0.468688
 0.468619
 0.469447
 0.469837
 0.469647
 0.469114
 0.468932
 0.468909
 0.468966
 0.469074
 0.469396
 0.470086
 0.470849
 0.471441
 0.471742
 0.471666
 0.471642
 0.471281
 0.470428
 0.469462
 0.468266
 0.466921
 0.465339
 0.463463
 0.461583
 0.459812
 0.457997
 0.456315
 0.454797
 0.453459
 0.452142
 0.450703